Folder: pyfaults/pyfaults/examples/data

Note: README.md
# PyFaults

To install using pip from Windows command line:

```pip install git+https://github.com/Maughan-Lab/pyfaults.git```

File: expt_XRD.txt
0.5 879.262
0.53195 1008.72
0.5639 979.91
0.59585 905.378
0.6278 886.909
0.65975 797.016
0.6917 650.191
0.72365 710.458
0.7556 625.281
0.78755 611.145
0.8195 571.633
0.85145 560.478
0.8834 481.378
0.91535 440.416
0.9473 567.105
0.97925 494.404
1.0112 465.347
1.04315 432.268
1.0751 407.899
1.10705 385.579
1.139 384.462
1.17095 430.42
1.2029 376.316
1.23485 361.947
1.2668 339.809
1.29875 370.19
1.3307 362.876
1.36265 326.427
1.3946 305.861
1.42655 318.621
1.4585 334.08
1.49045 280.52
1.5224 324.764
1.55435 272.574
1.5863 273.931
1.61825 315.379
1.6502 333.691
1.68215 292.756
1.7141 272.297
1.74605 324.514
1.778 281.329
1.80995 303.957
1.8419 296.419
1.87385 294.843
1.9058 246.234
1.93775 242.734
1.9697 287.335
2.00165 245.975
2.0336 249.043
2.06555 260.447
2.0975 242.051
2.12945 230.548
2.1614 239.107
2.19335 227.874
2.2253 223.883
2.25725 198.914
2.2892 216.895
2.32115 176.783
2.3531 186.135
2.38505 204.686
2.417 207.258
2.44895 217.448
2.4809 238.904
2.51285 218.429
2.5448 208.749
2.57675 228.221
2.6087 191.766
2.64065 158.125
2.6726 212.417
2.70455 224.879
2.7365 219.03
2.76845 203.946
2.8004 217.802
2.83235 201.328
2.8643 207.739
2.89625 224.569
2.9282 214.82
2.96015 202.583
2.9921 194.385
3.02405 178.458
3.056 241.78
3.08795 219.974
3.1199 219.266
3.15185 207.189
3.1838 232.481
3.21575 528.164
3.2477 261.693
3.27965 218.396
3.3116 242.65
3.34355 237.297
3.3755 238.831
3.40745 184.284
3.4394 240.018
3.47135 210.048
3.5033 227.184
3.53525 218.463
3.5672 218.208
3.59915 258.186
3.6311 247.495
3.66305 256.409
3.695 233.517
3.72695 224.302
3.7589 236.76
3.79085 218.922
3.8228 224.308
3.85475 236.615
3.8867 235.919
3.91865 226.287
3.9506 246.089
3.98255 231.62
4.0145 265.634
4.04645 281.31
4.0784 267.893
4.11035 275.448
4.1423 244.608
4.17425 290.962
4.2062 286.984
4.23815 309.429
4.2701 287.821
4.30205 319.945
4.334 395.774
4.36595 1108.38
4.3979 1594.2
4.42985 441.504
4.4618 322.56
4.49375 318.254
4.5257 317.7949
4.55765 317.251
4.5896 322.929
4.62155 367.391
4.6535 351.862
4.68545 328.632
4.7174 393.609
4.74935 927.275
4.7813 1592.65
4.81325 979.521
4.8452 855.437
4.87715 793.759
4.9091 875.42
4.94105 821.355
4.973 1378.98
5.00495 996.819
5.0369 798.14
5.06885 720.259
5.1008 610.773
5.13275 576.838
5.1647 573.683
5.19665 553.024
5.2286 552.8022
5.26055 542.379
5.2925 565.248
5.32445 515.976
5.3564 578.624
5.38835 549.861
5.4203 583.331
5.45225 659.0954
5.4842 605.744
5.51615 674.104
5.5481 1010.22
5.58005 879.371
5.612 640.177
5.64395 610.75
5.6759 595.728
5.70785 550.887
5.7398 591.348
5.77175 538.27
5.8037 530.222
5.83565 515.168
5.8676 547.211
5.89955 554.821
5.9315 539.369
5.96345 567.944
5.9954 547.426
6.02735 523.473
6.0593 522.033
6.09125 562.103
6.1232 528.321
6.15515 520.707
6.1871 551.095
6.21905 575.931
6.251 571.334
6.28295 544.803
6.3149 507.852
6.34685 537.9234
6.3788 561.28
6.41075 611.962
6.4427 641.35
6.47465 1152.81
6.5066 731.971
6.53855 560.096
6.5705 531.856
6.60245 487.847
6.6344 503.384
6.66635 495.293
6.6983 483.655
6.73025 480.088
6.7622 481.014
6.79415 475.674
6.8261 479.703
6.85805 465.738
6.89 458.875
6.92195 422.972
6.9539 433.958
6.98585 440.58
7.0178 443.313
7.04975 378.67
7.0817 439.764
7.11365 395.904
7.1456 403.347
7.17755 432.385
7.2095 402.922
7.24145 416.238
7.2734 368.903
7.30535 364.659
7.3373 386.529
7.36925 447.71
7.4012 530.827
7.43315 397.043
7.4651 388.258
7.49705 386.381
7.529 423.36
7.56095 460.789
7.5929 433.072
7.62485 351.654
7.6568 359.471
7.68875 371.103
7.7207 364.388
7.75265 319.102
7.7846 331.738
7.81655 326.852
7.8485 335.839
7.88045 339.727
7.9124 315.902
7.94435 324.773
7.9763 342.242
8.00825 332.973
8.0402 314.918
8.07215 312.505
8.1041 330.814
8.13605 314.819
8.168 322.085
8.19995 297.7
8.2319 306.701
8.26385 316.972
8.2958 344.595
8.32775 434.537
8.3597 893.27
8.39165 1086.72
8.4236 478.023
8.45555 452.585
8.4875 362.402
8.51945 328.145
8.5514 342.351
8.58335 359.226
8.6153 425.791
8.64725 458.954
8.6792 714.701
8.71115 1693.71
8.7431 18205.4
8.77505 14427.8
8.807 1502.38
8.83895 1267.12
8.8709 1491.17
8.90285 514.531
8.9348 371.261
8.96675 327.51
8.9987 384.028
9.03065 290.396
9.0626 274.88
9.09455 278.486
9.1265 282.355
9.15845 286.105
9.1904 281.356
9.22235 284.292
9.2543 282.174
9.28625 287.782
9.3182 242.638
9.35015 241.696
9.3821 272.171
9.41405 267.613
9.446 276.741
9.47795 260.702
9.5099 267.44
9.54185 348.755
9.5738 294.607
9.60575 306.903
9.6377 292.92
9.66965 300.318
9.7016 295.656
9.73355 286.152
9.7655 308.994
9.79745 314.179
9.8294 342.403
9.86135 354.456
9.8933 393.93
9.92525 429.636
9.9572 736.11
9.98915 994.935
9.999134 1079.51