Folder: pyfaults/pyfaults/tutorials/files

Note: README.md
# PyFaults

To install using pip from Windows command line:

```pip install git+https://github.com/Maughan-Lab/pyfaults.git```

File: expt_XRD.txt
0.5 879.262
0.665741 760.354
0.831481 591.39
0.997222 478.065
1.162962 375.455
1.328703 355.39
1.494444 287.783
1.660184 278.375
1.825925 271.057
1.991666 262.979
2.157406 249.759
2.323147 226.002
2.488888 216.512
2.654628 229.989
2.820369 221.926
2.986109 206.89
3.15185 207.189
3.317591 212.358
3.483331 244.43
3.649072 221.981
3.814813 261.414
3.980553 241.674
4.146294 266.219
4.312034 343.919
4.477775 317.347
4.643516 317.175
4.809256 959.934
4.974997 1418.23
5.140738 603.397
5.306478 574.2687
5.472219 637.684
5.637959 609.407
5.8037 530.222
5.969441 508.067
6.135181 533.539
6.300922 565.029
6.466663 884.361
6.632403 505.103
6.798144 466.657
6.963884 447.357
7.129625 394.219
7.295366 377.374
7.461106 408.475
7.626847 352.654
7.792588 363.229
7.958328 325.452
8.124069 316.019
8.289809 334.479
8.45555 452.585
8.621291 413.349
8.787031 3668.63
8.952772 333.064
9.118513 283.723
9.284253 268.057
9.449994 277.496
9.615734 296.279
9.781475 296.99
9.947216 583.682
10.113 15444.9
10.2787 774.119
10.4444 330.381
10.6102 353.059
10.7759 219.955
10.9417 221.795
11.1074 285.151
11.2731 227.551
11.4389 233.6066
11.6046 218.334
11.7704 203.511
11.9361 210.986
12.1018 215.743
12.2676 225.441
12.4333 207.193
12.5991 337.664
12.7648 307.35
12.9305 430.866
13.0963 419.48
13.262 342.61
13.4278 264.58
13.5935 250.544
13.75925 289.539
13.925 353.328
14.0907 344.424
14.2565 1492.74
14.4222 814.378
14.588 352.165
14.7537 267.253
14.9194 394.973
15.0852 267.516
15.2509 244.63
15.4167 244.669
15.5824 215.055
15.7481 187.718
15.9139 209.027
16.0796 233.672
16.2454 233.751
16.4111 231.715
16.5768 319.226
16.7426 1249.73
16.9083 551.774
17.0741 341.61
17.2398 440.41
17.4055 367.852
17.5713 1843.06
17.737 444.266
17.9028 269.468
18.0685 289.797
18.2342 274.416
18.4 211.905
18.5657 238.074
18.7315 234.056
18.8972 201.264
19.06295 205.5
19.2287 251.533
19.3944 237.55
19.5602 231.652
19.7259 223.435
19.8917 221.98
20.0574 249.365
20.2231 453.149
20.3889 559.147
20.5546 299.924
20.7204 234.336
20.8861 248.9
21.0518 233.637
21.2176 242.179
21.3833 233.867
21.5491 233.126
21.7148 267.7226
21.8805 268.829
22.0463 538.025
22.212 445.395
22.3778 372.67
22.5435 351.306
22.7092 1400.34
22.875 438.15
23.0407 364.655
23.2065 339.297
23.3722 230.657
23.5379 253.475
23.7037 249.403
23.8694 234.611
24.0352 259.75
24.2009 256.515
24.36665 244.883
24.5324 239.083
24.6981 254.998
24.8639 833.114
25.0296 436.931
25.1954 309.038
25.3611 269.43
25.5268 235.228
25.6926 253.75
25.8583 248.874
26.0241 229.308
26.1898 223.143
26.3555 352.16
26.5213 436.961
26.687 224.935
26.8528 233.516
27.0185 214.969
27.1842 217.312
27.35 260.33
27.5157 185.683
27.6815 194.621
27.8472 192.402
28.0129 187.109
28.1787 187.114
28.3444 191.229
28.5102 177.391
28.6759 211.659
28.8416 364.442
29.0074 207.919
29.1731 233.539
29.3389 232.216
29.5046 183.45
29.67035 210.052
29.8361 206.988
30.0018 182.769
30.1676 289.133
30.3333 227.823
30.4991 247.814
30.6648 530.431
30.8305 234.732
30.9963 224.55
31.162 222
31.3278 192.38
31.4935 186.479
31.6592 186.725
31.825 246.414
31.9907 181.849
32.1565 203.478
32.3222 280.247
32.4879 258.223
32.6537 218.777
32.8194 206.23
32.9852 197.09
33.1509 220.519
33.3166 179.033
33.4824 238.042
33.6481 233.095
33.8139 216.463
33.9796 312.393
34.1453 242.458
34.3111 228.511
34.4768 226.722
34.6426 195.138
34.8083 193.05
34.97405 206.923
35.1398 232.895
35.3055 194.877
35.4713 209.442
35.637 208.391
35.8028 202.096
35.9685 217.379
36.1342 179.731
36.3 202.776
36.4657 185.021
36.6315 222.102
36.7972 197.939
36.9629 224.943
37.1287 224.837
37.2944 210.051
37.4602 193.017
37.6259 176.889
37.7916 165.073
37.9574 175.412
38.1231 172.356
38.2889 207.263
38.4546 261.372
38.6203 217.439
38.7861 197.878
38.9518 181.277
39.1176 173.357
39.2833 179.921
39.449 186.904
39.6148 172.502
39.7805 189.276
39.9463 182.449
40.112 201.859
40.27775 177.068
40.4435 145.179
40.6092 172.833
40.775 169.356
40.9407 152.804
41.1065 141.36
41.2722 172.145
41.4379 170.186
41.6037 176.783
41.7694 149.131
41.9352 139.5
42.1009 176.166
42.2666 184.903
42.4324 186.747
42.5981 189.268
42.7639 167.601
42.9296 186.677
43.0953 132.263
43.2611 124.545
43.4268 132.949
43.5926 148.162
43.7583 142.331
43.924 161.8342
44.0898 175.303
44.2555 155.383
44.4213 144.219
44.587 157.62
44.7527 174.139
44.9185 187.271
45.0842 177.324
45.25 179.633
45.4157 154.307
45.58145 143.763
45.7472 153.202
45.9129 164.544
46.0787 167.236
46.2444 151.75
46.4102 159.668
46.5759 147.306
46.7416 119.2
46.9074 145.77
47.0731 151.345
47.2389 119.834
47.4046 150.662
47.5703 152.177
47.7361 163.026
47.9018 128.163
48.0676 118.417
48.2333 152.681
48.399 128.837
48.5648 108.605
48.7305 150.904
48.8963 129.842
49.062 134.053
49.2277 123.201
49.3935 80.2987
49.5592 124.371
49.725 98.1261
49.8907 181.301
49.9945 140.634